//--------------------
//Multipak Exporter  1.2.0
//Load file from \var\www\html\dpfc_dataregistry\app\tmp\files\post\filename\10\MIDATA001.108.spe
//--------------------
//--------------------
//HEADER INFORMATION
Platform:PC
Technique:XPS
FileType:SPECTRUM
FileDesc:MIDATA001
SoftwareVersion:SS 3.6.1.16
InstrumentModel:PHI Quantera SXM
AcqFilename:C:\Datafiles\Yasufuku\20170606\MIDATA001.108.spe
FileDate:2017 6 6
AcqFileDate:2017 6 6
Institution:
Operator:
ExperimentID:20170606
AnalyserWorkFcn:4.250 eV
PlatenID:MIDATA001
PlatenDesc:
PhotoFilename:MIDATA001.101.pho
SXIFilename:
SourceAnalyserAngle:45.0 d
AnalyserSolidAngle:0.38 sr
EnergyRecal:no
SputterIon:Ar+
SputterCurrent:0.000 uA
SputterEnergy:1.000 kV
FloatVolt:0.0 V
SputterRaster:2.00 2.00 mm
AnalyserMode:FAT
SurvNumCycles:1
NoSpectralReg:1
SpectralRegDef:1 1 Su1s 111 2801 -0.5000 1380.0000 -20.0000 1379.0000 -19.0000 0.179640 280.00 AREA
SpectralRegDef2:1 1400.0 5 0 2 1
NoSpatialArea:1
SpatialAreaDef:1 HP1 4 (9343.5 -21406.3 24061.0 45.0 0.0) (10743.5 -21406.3 24061.0 45.0 0.0) (10743.5 -21306.3 24061.0 45.0 0.0) (9343.5 -21306.3 24061.0 45.0 0.0)
SpatialAreaDesc:1 #1 Ag foil
XraySource:Al 1486.6 mono
XrayPower:103.08 W
XrayBeamDiameter:100.0 um
XRayHighPower:yes
NeutralizerCurrent:20.0 uA
NeutralizerEnergy:1.40 V
StagePosition:10.1270 22.9872 24.0607 45.0000 0.0044


//Area comment,RegionNo,AtomicName,Area No,XLabel,YLabel,DataCount
#1 Ag foil
1
Su1s
1
Binding Energy(eV),reverse
Intensity(c/s)
2801
1380.0000	382804.5000
1379.5000	380099.0938
1379.0000	377087.5000
1378.5000	373023.8125
1378.0000	370797.1563
1377.5000	365703.6250
1377.0000	362564.0313
1376.5000	358973.5000
1376.0000	357097.5313
1375.5000	351786.9063
1375.0000	347038.5313
1374.5000	346303.7188
1374.0000	343999.0938
1373.5000	338827.6563
1373.0000	336896.0000
1372.5000	334251.8438
1372.0000	330639.0625
1371.5000	327928.0938
1371.0000	329464.5000
1370.5000	325734.8125
1370.0000	322700.9688
1369.5000	319917.6250
1369.0000	320741.4688
1368.5000	317017.3750
1368.0000	314701.6250
1367.5000	313187.5000
1367.0000	313243.1563
1366.5000	309686.0313
1366.0000	308166.3438
1365.5000	308912.2813
1365.0000	307615.2188
1364.5000	306813.6250
1364.0000	306618.7813
1363.5000	304213.9688
1363.0000	303785.3438
1362.5000	300940.7813
1362.0000	303785.3438
1361.5000	297923.6250
1361.0000	299404.3750
1360.5000	297840.1250
1360.0000	296320.4063
1359.5000	293754.1875
1359.0000	293514.8125
1358.5000	295869.5313
1358.0000	293342.2500
1357.5000	293715.2188
1357.0000	293397.9063
1356.5000	294806.2813
1356.0000	290870.6250
1355.5000	291538.6250
1355.0000	289618.1250
1354.5000	288148.5313
1354.0000	288449.1250
1353.5000	292473.8438
1353.0000	286550.8750
1352.5000	287898.0313
1352.0000	286762.4063
1351.5000	284741.7188
1351.0000	285604.5313
1350.5000	284140.5000
1350.0000	285064.5625
1349.5000	280538.8438
1349.0000	283016.0313
1348.5000	279987.7500
1348.0000	278930.0938
1347.5000	277399.2500
1347.0000	276079.9375
1346.5000	274059.2188
1346.0000	276892.6875
1345.5000	273981.2813
1345.0000	274203.9688
1344.5000	273313.2813
1344.0000	272795.5938
1343.5000	273218.6563
1343.0000	272467.1563
1342.5000	271142.2813
1342.0000	270446.4375
1341.5000	268531.5000
1341.0000	269188.3750
1340.5000	268681.8125
1340.0000	269077.0313
1339.5000	271292.5938
1339.0000	268987.9688
1338.5000	267412.5938
1338.0000	269166.1250
1337.5000	267028.5000
1337.0000	269655.9688
1336.5000	267913.5938
1336.0000	269255.1875
1335.5000	269717.2188
1335.0000	267852.3750
1334.5000	269433.3125
1334.0000	270953.0313
1333.5000	269739.4688
1333.0000	271693.3750
1332.5000	269767.3125
1332.0000	271994.0000
1331.5000	271554.2188
1331.0000	271465.1563
1330.5000	273012.6875
1330.0000	274320.8750
1329.5000	272817.8438
1329.0000	275367.4063
1328.5000	273513.6875
1328.0000	275050.0938
1327.5000	275267.1875
1327.0000	272823.4375
1326.5000	274187.2500
1326.0000	275740.3750
1325.5000	275378.5313
1325.0000	274270.7500
1324.5000	274794.0313
1324.0000	277354.7188
1323.5000	278245.3750
1323.0000	277265.6563
1322.5000	276753.5000
1322.0000	276130.0313
1321.5000	277176.5625
1321.0000	276747.9375
1320.5000	277137.5938
1320.0000	275328.4375
1319.5000	277905.8125
1319.0000	274487.8750
1318.5000	276686.7188
1318.0000	276130.0313
1317.5000	276235.8125
1317.0000	275556.6563
1316.5000	278646.1875
1316.0000	275729.2500
1315.5000	277855.7188
1315.0000	274348.6875
1314.5000	276113.3438
1314.0000	276169.0000
1313.5000	278835.4375
1313.0000	276374.9688
1312.5000	278735.2500
1312.0000	277978.1875
1311.5000	279614.7813
1311.0000	277816.7500
1310.5000	281919.4063
1310.0000	282169.9063
1309.5000	281986.1875
1309.0000	283928.9688
1308.5000	283956.8125
1308.0000	284001.3438
1307.5000	285955.2500
1307.0000	287970.3750
1306.5000	287758.8438
1306.0000	289284.1250
1305.5000	289484.5313
1305.0000	290163.6563
1304.5000	292468.2813
1304.0000	291533.0625
1303.5000	292562.9063
1303.0000	293915.5938
1302.5000	295674.6875
1302.0000	297589.6250
1301.5000	295374.0938
1301.0000	296771.3125
1300.5000	299515.6875
1300.0000	299627.0313
1299.5000	299059.2188
1299.0000	301285.9063
1298.5000	302961.4688
1298.0000	302677.5625
1297.5000	302577.3750
1297.0000	301575.3750
1296.5000	304280.7813
1296.0000	306835.9063
1295.5000	307849.0313
1295.0000	309775.0938
1294.5000	308862.1563
1294.0000	311767.9688
1293.5000	308333.3438
1293.0000	311088.8438
1292.5000	310855.0313
1292.0000	311317.0938
1291.5000	310326.2188
1291.0000	308049.4375
1290.5000	306635.5000
1290.0000	308238.6875
1289.5000	306696.7188
1289.0000	304074.8125
1288.5000	304748.3750
1288.0000	304765.0938
1287.5000	306891.5625
1287.0000	304158.3125
1286.5000	304781.7813
1286.0000	304575.8125
1285.5000	302777.7813
1285.0000	305533.2813
1284.5000	303852.1563
1284.0000	303507.0000
1283.5000	304737.2500
1283.0000	304230.6875
1282.5000	304080.3750
1282.0000	303161.8750
1281.5000	304497.8750
1281.0000	300512.1250
1280.5000	302822.3125
1280.0000	302432.6563
1279.5000	303495.8750
1279.0000	301914.9375
1278.5000	303707.4063
1278.0000	301419.5000
1277.5000	302827.8750
1277.0000	303378.9688
1276.5000	302521.7188
1276.0000	302582.9375
1275.5000	305232.6875
1275.0000	301057.6563
1274.5000	304392.1250
1274.0000	305861.7188
1273.5000	304275.2188
1273.0000	306396.1250
1272.5000	307659.7500
1272.0000	308238.6875
1271.5000	307860.1563
1271.0000	307759.9688
1270.5000	308455.8125
1270.0000	309775.0938
1269.5000	311083.2813
1269.0000	310704.7500
1268.5000	309318.6250
1268.0000	310097.9688
1267.5000	309686.0313
1267.0000	308923.4063
1266.5000	308038.3125
1266.0000	309474.5000
1265.5000	308116.2188
1265.0000	306440.6563
1264.5000	309580.2813
1264.0000	308667.3438
1263.5000	309218.4375
1263.0000	309318.6250
1262.5000	311200.1875
1262.0000	309352.0313
1261.5000	313226.4375
1261.0000	311929.4063
1260.5000	312647.5313
1260.0000	312491.6563
1259.5000	313154.0938
1259.0000	313232.0313
1258.5000	313955.6875
1258.0000	316071.0313
1257.5000	314501.2188
1257.0000	315792.6875
1256.5000	317484.9688
1256.0000	316377.1875
1255.5000	316332.6563
1255.0000	316822.5313
1254.5000	318281.0000
1254.0000	317167.6563
1253.5000	317173.2500
1253.0000	321376.0938
1252.5000	319622.5938
1252.0000	319110.4375
1251.5000	319672.6875
1251.0000	319867.5000
1250.5000	320908.4688
1250.0000	320223.7813
1249.5000	321275.8750
1249.0000	322940.3125
1248.5000	319683.8125
1248.0000	321120.0313
1247.5000	321008.6875
1247.0000	322339.1250
1246.5000	321648.8438
1246.0000	322968.1563
1245.5000	323368.9688
1245.0000	322289.0313
1244.5000	322032.9688
1244.0000	325139.1563
1243.5000	321081.0625
1243.0000	324476.7188
1242.5000	323368.9688
1242.0000	324137.1563
1241.5000	322634.1563
1241.0000	324075.9375
1240.5000	325684.6875
1240.0000	326870.4063
1239.5000	327677.5625
1239.0000	324638.1563
1238.5000	326475.1875
1238.0000	327527.2813
1237.5000	326926.0625
1237.0000	328456.9063
1236.5000	328935.6563
1236.0000	329291.9063
1235.5000	327254.5000
1235.0000	332036.2813
1234.5000	333517.0313
1234.0000	336556.4375
1233.5000	332860.1563
1233.0000	336311.5000
1232.5000	337063.0000
1232.0000	337018.4688
1231.5000	340480.9688
1231.0000	339328.6563
1230.5000	340202.6250
1230.0000	341978.4063
1229.5000	343782.0000
1229.0000	343999.0938
1228.5000	346827.0000
1228.0000	350901.8125
1227.5000	351703.4063
1227.0000	353011.5938
1226.5000	353774.2188
1226.0000	355650.1875
1225.5000	351363.8438
1225.0000	350462.0313
1224.5000	350328.4375
1224.0000	347539.5313
1223.5000	345574.4688
1223.0000	343598.3125
1222.5000	339807.4063
1222.0000	337330.2188
1221.5000	337452.6875
1221.0000	337085.2813
1220.5000	332815.6250
1220.0000	333283.2188
1219.5000	330182.5938
1219.0000	328657.3125
1218.5000	326180.1250
1218.0000	325745.9375
1217.5000	323129.5938
1217.0000	320802.7188
1216.5000	319756.1875
1216.0000	318731.9063
1215.5000	318648.4063
1215.0000	318336.6875
1214.5000	319205.0625
1214.0000	315976.4063
1213.5000	317757.7500
1213.0000	319171.6875
1212.5000	318542.6563
1212.0000	320385.2188
1211.5000	321470.7188
1211.0000	321576.5000
1210.5000	323636.1563
1210.0000	323558.2188
1209.5000	325462.0313
1209.0000	327365.8438
1208.5000	327042.9688
1208.0000	329726.1250
1207.5000	329898.6875
1207.0000	331858.1563
1206.5000	331373.8438
1206.0000	335331.7813
1205.5000	340519.9375
1205.0000	339913.1563
1204.5000	341315.9688
1204.0000	340820.5313
1203.5000	343904.4688
1203.0000	347867.9688
1202.5000	348051.6563
1202.0000	352271.2188
1201.5000	352176.5625
1201.0000	358093.9688
1200.5000	357821.1875
1200.0000	362135.3750
1199.5000	363939.0000
1199.0000	367078.5938
1198.5000	369984.4063
1198.0000	370991.9688
1197.5000	373090.6250
1197.0000	374237.3750
1196.5000	377521.7188
1196.0000	378445.7813
1195.5000	375066.8125
1195.0000	381223.5625
1194.5000	382242.2500
1194.0000	383745.2813
1193.5000	382320.1875
1193.0000	385610.0938
1192.5000	384496.7813
1192.0000	387291.2500
1191.5000	386912.7188
1191.0000	383990.1875
1190.5000	382932.5313
1190.0000	381663.3125
1189.5000	378946.7813
1189.0000	379108.2188
1188.5000	377020.7188
1188.0000	372968.1563
1187.5000	376580.9375
1187.0000	370362.9375
1186.5000	368175.2500
1186.0000	366282.5625
1185.5000	364673.7813
1185.0000	360381.8750
1184.5000	359207.3125
1184.0000	352093.0625
1183.5000	347350.2500
1183.0000	340542.1875
1182.5000	333661.7813
1182.0000	329219.5625
1181.5000	326592.0625
1181.0000	320702.5313
1180.5000	317651.9688
1180.0000	309652.6250
1179.5000	307498.3438
1179.0000	301202.4063
1178.5000	299070.3750
1178.0000	292106.4375
1177.5000	291310.4063
1177.0000	286378.3125
1176.5000	281262.5313
1176.0000	280416.3750
1175.5000	276681.1250
1175.0000	273257.6250
1174.5000	270179.2500
1174.0000	270279.4375
1173.5000	268175.2500
1173.0000	266176.8125
1172.5000	266716.7813
1172.0000	266405.0313
1171.5000	265497.6563
1171.0000	263365.6250
1170.5000	263660.6563
1170.0000	263911.1563
1169.5000	261445.1094
1169.0000	264289.6875
1168.5000	262101.9844
1168.0000	263165.2188
1167.5000	260281.6719
1167.0000	261261.4063
1166.5000	262641.9375
1166.0000	262035.1875
1165.5000	263309.9688
1165.0000	264222.8750
1164.5000	265269.4375
1164.0000	262664.2188
1163.5000	263070.5938
1163.0000	265458.6875
1162.5000	266778.0000
1162.0000	267290.1250
1161.5000	266421.7188
1161.0000	268152.9688
1160.5000	269555.7813
1160.0000	270730.3438
1159.5000	271531.9375
1159.0000	269717.2188
1158.5000	271960.5938
1158.0000	272884.6563
1157.5000	273947.9063
1157.0000	272756.6250
1156.5000	273413.5000
1156.0000	275083.5000
1155.5000	275217.0938
1155.0000	278373.4063
1154.5000	279792.9063
1154.0000	278456.9063
1153.5000	280021.1563
1153.0000	280410.8125
1152.5000	282453.7813
1152.0000	283912.2813
1151.5000	282398.1250
1151.0000	285203.7500
1150.5000	290241.5938
1150.0000	289835.2188
1149.5000	292585.1563
1149.0000	289757.2813
1148.5000	295017.8125
1148.0000	293692.9375
1147.5000	301369.4063
1147.0000	305154.7500
1146.5000	306835.9063
1146.0000	309229.5625
1145.5000	314579.1563
1145.0000	318492.5313
1144.5000	320151.4063
1144.0000	326007.5625
1143.5000	332893.5625
1143.0000	339401.0313
1142.5000	341633.2813
1142.0000	346298.1563
1141.5000	352610.7813
1141.0000	361489.6563
1140.5000	368175.2500
1140.0000	375066.8125
1139.5000	386612.1250
1139.0000	399788.4688
1138.5000	417379.1875
1138.0000	428245.3750
1137.5000	437174.3438
1137.0000	447739.9375
1136.5000	463610.5625
1136.0000	500406.3750
1135.5000	549259.6250
1135.0000	594878.6250
1134.5000	604948.8125
1134.0000	587569.5625
1133.5000	564668.2500
1133.0000	528612.7500
1132.5000	496164.5625
1132.0000	464239.5938
1131.5000	435682.4688
1131.0000	421754.6250
1130.5000	417841.2500
1130.0000	429570.2500
1129.5000	460398.5625
1129.0000	485153.6250
1128.5000	471938.3125
1128.0000	420735.9063
1127.5000	370429.7500
1127.0000	323101.7500
1126.5000	291861.5000
1126.0000	270958.5938
1125.5000	259903.1406
1125.0000	253495.8750
1124.5000	248291.0313
1124.0000	241071.0313
1123.5000	236667.7813
1123.0000	229898.6875
1122.5000	224242.9375
1122.0000	219817.4063
1121.5000	213977.9531
1121.0000	209424.4063
1120.5000	207420.3906
1120.0000	205054.5469
1119.5000	203896.6875
1119.0000	203006.0156
1118.5000	200601.2031
1118.0000	200395.2344
1117.5000	198168.5625
1117.0000	198079.5000
1116.5000	196938.3281
1116.0000	193598.3125
1115.5000	194394.3438
1115.0000	193008.2344
1114.5000	194321.9844
1114.0000	193876.6406
1113.5000	193637.2813
1113.0000	192780.0000
1112.5000	192952.5781
1112.0000	191744.5938
1111.5000	190180.3594
1111.0000	190325.0938
1110.5000	190614.5625
1110.0000	189512.3594
1109.5000	191165.6719
1109.0000	190892.8906
1108.5000	191288.1250
1108.0000	189952.1250
1107.5000	192846.8125
1107.0000	191232.4688
1106.5000	191594.2969
1106.0000	189645.9531
1105.5000	192100.8750
1105.0000	190636.8281
1104.5000	189133.8281
1104.0000	191343.7969
1103.5000	190414.1563
1103.0000	191288.1250
1102.5000	191655.5313
1102.0000	191087.7344
1101.5000	191455.1250
1101.0000	190152.5313
1100.5000	190764.8594
1100.0000	190970.8281
1099.5000	192301.2656
1099.0000	192206.6406
1098.5000	194177.2500
1098.0000	191098.8594
1097.5000	192473.8438
1097.0000	192262.2969
1096.5000	190286.1250
1096.0000	195819.4219
1095.5000	191505.2344
1095.0000	193475.8438
1094.5000	193570.4688
1094.0000	193397.9063
1093.5000	192896.9063
1093.0000	192947.0000
1092.5000	195819.4219
1092.0000	193364.5000
1091.5000	194077.0469
1091.0000	194622.5781
1090.5000	195145.8438
1090.0000	194989.9844
1089.5000	195902.9219
1089.0000	194845.2500
1088.5000	197494.9844
1088.0000	195118.0156
1087.5000	196108.8906
1087.0000	196520.8125
1086.5000	196526.3906
1086.0000	197016.2500
1085.5000	196999.5469
1085.0000	195340.6875
1084.5000	196838.1250
1084.0000	198430.1875
1083.5000	198485.8594
1083.0000	198279.8906
1082.5000	197901.3594
1082.0000	197155.4219
1081.5000	196593.1875
1081.0000	198664.0000
1080.5000	197044.0938
1080.0000	196403.9219
1079.5000	197801.1563
1079.0000	197500.5625
1078.5000	199593.6250
1078.0000	198730.7969
1077.5000	200300.5938
1077.0000	199421.0625
1076.5000	198652.8594
1076.0000	199972.1719
1075.5000	200428.6406
1075.0000	200428.6406
1074.5000	199092.6250
1074.0000	201681.1406
1073.5000	199732.7969
1073.0000	201085.5000
1072.5000	200612.3281
1072.0000	200796.0313
1071.5000	199281.8906
1071.0000	201497.4375
1070.5000	202816.7500
1070.0000	202449.3438
1069.5000	202571.8125
1069.0000	202543.9844
1068.5000	203301.0469
1068.0000	205177.0156
1067.5000	204926.5156
1067.0000	203117.3438
1066.5000	204152.7500
1066.0000	206028.7188
1065.5000	201397.2344
1065.0000	202343.5781
1064.5000	207253.3906
1064.0000	203273.2188
1063.5000	204575.8125
1063.0000	203367.8438
1062.5000	201163.4375
1062.0000	203011.5781
1061.5000	202905.8125
1061.0000	203996.8750
1060.5000	203367.8438
1060.0000	205054.5469
1059.5000	204843.0156
1059.0000	204659.3125
1058.5000	207403.7031
1058.0000	206568.6875
1057.5000	207442.6563
1057.0000	205104.6563
1056.5000	206924.9688
1056.0000	205065.6875
1055.5000	207993.7656
1055.0000	208711.8750
1054.5000	208311.0625
1054.0000	210331.7813
1053.5000	207275.6563
1053.0000	210381.8750
1052.5000	209118.2344
1052.0000	209969.9375
1051.5000	209001.3438
1051.0000	210387.4375
1050.5000	210777.1094
1050.0000	210509.9063
1049.5000	208127.3594
1049.0000	210649.0781
1048.5000	211818.0781
1048.0000	211584.2813
1047.5000	211278.1094
1047.0000	210192.6094
1046.5000	212129.8125
1046.0000	211367.1719
1045.5000	210365.1719
1045.0000	211506.3438
1044.5000	212452.6875
1044.0000	212252.2813
1043.5000	212931.4219
1043.0000	210459.8125
1042.5000	212074.1406
1042.0000	211957.2500
1041.5000	213688.4844
1041.0000	212564.0156
1040.5000	213688.4844
1040.0000	214701.6250
1039.5000	212452.6875
1039.0000	213927.8594
1038.5000	210142.5000
1038.0000	215336.2344
1037.5000	212224.4531
1037.0000	214028.0625
1036.5000	213137.3906
1036.0000	216221.3281
1035.5000	215152.5313
1035.0000	213504.7813
1034.5000	212452.6875
1034.0000	212786.6875
1033.5000	213404.5938
1033.0000	212675.3438
1032.5000	212792.2500
1032.0000	214785.1250
1031.5000	215352.9219
1031.0000	215007.7969
1030.5000	214540.1875
1030.0000	213593.8594
1029.5000	214250.7188
1029.0000	215725.8906
1028.5000	214105.9844
1028.0000	214879.7656
1027.5000	212859.0469
1027.0000	215341.7969
1026.5000	215197.0625
1026.0000	214234.0313
1025.5000	213371.1875
1025.0000	216416.1719
1024.5000	217702.0781
1024.0000	217785.5781
1023.5000	218509.2344
1023.0000	217818.9688
1022.5000	215636.8281
1022.0000	217924.7344
1021.5000	217178.7969
1021.0000	216082.1719
1020.5000	216616.5625
1020.0000	217228.9063
1019.5000	216026.5000
1019.0000	217045.2031
1018.5000	217785.5781
1018.0000	217830.1094
1017.5000	216789.1406
1017.0000	218386.7813
1016.5000	219594.7500
1016.0000	218665.1094
1015.5000	219110.4375
1015.0000	217646.4063
1014.5000	219633.7188
1014.0000	220502.1094
1013.5000	219032.5156
1013.0000	219205.0781
1012.5000	219761.7500
1012.0000	219694.9531
1011.5000	220691.3750
1011.0000	219349.8125
1010.5000	219605.8750
1010.0000	221186.8125
1009.5000	220090.1875
1009.0000	223374.5313
1008.5000	221075.4844
1008.0000	219572.4844
1007.5000	223235.3594
1007.0000	220173.6875
1006.5000	222071.9219
1006.0000	221966.1563
1005.5000	220401.9219
1005.0000	220958.5781
1004.5000	221287.0156
1004.0000	221982.8594
1003.5000	223469.1563
1003.0000	223602.7656
1002.5000	224382.0938
1002.0000	223697.3906
1001.5000	224794.0313
1001.0000	222116.4531
1000.5000	224337.5625
1000.0000	223012.6875
999.5000	223964.5938
999.0000	224966.5938
998.5000	225606.7656
998.0000	224593.6250
997.5000	224103.7656
997.0000	225295.0313
996.5000	224704.9688
996.0000	227321.3125
995.5000	226330.4375
995.0000	227209.9688
994.5000	226658.8750
994.0000	226920.5000
993.5000	227610.7813
993.0000	227137.6094
992.5000	229314.1875
992.0000	228468.0469
991.5000	229726.1250
991.0000	228384.5469
990.5000	229943.2188
990.0000	229520.1563
989.5000	230177.0156
989.0000	229898.6875
988.5000	229097.0781
988.0000	229069.2500
987.5000	228462.4844
987.0000	227432.6406
986.5000	229609.2188
986.0000	231284.7969
985.5000	232225.5625
985.0000	231101.0938
984.5000	231741.2656
984.0000	231462.9219
983.5000	233884.4375
983.0000	230015.5938
982.5000	232459.3594
982.0000	233561.5625
981.5000	231913.8281
981.0000	233260.9688
980.5000	232771.0938
980.0000	231462.9219
979.5000	229759.5156
979.0000	232064.1250
978.5000	231268.0938
978.0000	232075.2656
977.5000	231385.0000
977.0000	232682.0313
976.5000	228857.7188
976.0000	231084.3906
975.5000	229904.2500
975.0000	230950.7969
974.5000	230293.9219
974.0000	229692.7188
973.5000	231128.9219
973.0000	230833.8906
972.5000	233177.4688
972.0000	230978.6250
971.5000	231847.0313
971.0000	231229.1250
970.5000	232309.0625
970.0000	231691.1563
969.5000	233878.8750
969.0000	231256.9531
968.5000	231741.2656
968.0000	232498.3281
967.5000	232665.3281
967.0000	232843.4688
966.5000	231952.7969
966.0000	232175.4688
965.5000	234908.7031
965.0000	232643.0625
964.5000	234023.6094
964.0000	233890.0000
963.5000	233288.7969
963.0000	236862.6094
962.5000	233967.9375
962.0000	234975.5000
961.5000	234101.5313
961.0000	235348.4688
960.5000	233645.0625
960.0000	235493.2031
959.5000	236172.3438
959.0000	235615.6719
958.5000	236857.0469
958.0000	236005.3438
957.5000	236016.4844
957.0000	234975.5000
956.5000	234446.6719
956.0000	235276.1094
955.5000	234758.4063
955.0000	235971.9375
954.5000	235910.7031
954.0000	235198.1719
953.5000	234391.0000
953.0000	237708.7500
952.5000	235927.4063
952.0000	235765.9688
951.5000	236740.1406
951.0000	235103.5469
950.5000	235543.3125
950.0000	237363.6094
949.5000	235342.9063
949.0000	237441.5469
948.5000	234641.5000
948.0000	237714.3125
947.5000	234986.6406
947.0000	237029.6094
946.5000	238315.5156
946.0000	239529.0625
945.5000	238059.4531
945.0000	237586.2813
944.5000	238482.5156
944.0000	238048.3125
943.5000	239005.7969
943.0000	238148.5156
942.5000	239835.2188
942.0000	236422.8438
941.5000	240057.8906
941.0000	239072.5938
940.5000	240096.8594
940.0000	240531.0625
939.5000	237569.5781
939.0000	237608.5469
938.5000	240480.9688
938.0000	241265.8594
937.5000	240831.6563
937.0000	240881.7656
936.5000	239779.5625
936.0000	241087.7344
935.5000	240141.3906
935.0000	241972.8281
934.5000	239078.1563
934.0000	241805.8281
933.5000	240954.1250
933.0000	242496.1094
932.5000	241945.0000
932.0000	243720.7813
931.5000	242579.6094
931.0000	242807.8438
930.5000	243381.2031
930.0000	243715.2031
929.5000	242162.1094
929.0000	243876.6406
928.5000	241410.5938
928.0000	245424.1875
927.5000	242707.6406
927.0000	244817.4063
926.5000	243036.0781
926.0000	245591.1875
925.5000	244650.4063
925.0000	244967.7188
924.5000	245930.7500
924.0000	243915.6094
923.5000	244978.8438
923.0000	245351.8125
922.5000	249844.1250
922.0000	245079.0469
921.5000	245930.7500
921.0000	245741.4844
920.5000	246877.0938
920.0000	247066.3594
919.5000	247661.9844
919.0000	249142.7344
918.5000	248608.3281
918.0000	249070.3594
917.5000	247417.0625
917.0000	248235.3594
916.5000	248764.1875
916.0000	247216.6563
915.5000	249148.2969
915.0000	248747.5000
914.5000	248714.0938
914.0000	250222.6719
913.5000	250606.7656
913.0000	251035.4063
912.5000	249092.6250
912.0000	250428.6406
911.5000	249794.0313
911.0000	249343.1250
910.5000	249543.5313
910.0000	252861.2813
909.5000	249677.1250
909.0000	253701.8438
908.5000	250501.0000
908.0000	250300.5938
907.5000	253217.5469
907.0000	251341.5781
906.5000	253462.4844
906.0000	252961.4844
905.5000	253696.2813
905.0000	253724.1094
904.5000	254208.4219
904.0000	252972.6094
903.5000	253328.8750
903.0000	254347.5781
902.5000	253206.4063
902.0000	253729.6875
901.5000	256540.8594
901.0000	254798.4844
900.5000	255911.8281
900.0000	255444.2188
899.5000	255533.2813
899.0000	256073.2500
898.5000	256379.4219
898.0000	256952.7969
897.5000	255900.6875
897.0000	256446.2188
896.5000	256073.2500
896.0000	257643.0625
895.5000	256691.1563
895.0000	255872.8594
894.5000	256295.9219
894.0000	258004.9063
893.5000	256852.5938
893.0000	257782.2344
892.5000	261172.3438
892.0000	262101.9844
891.5000	259224.0000
891.0000	260320.6406
890.5000	257548.4375
890.0000	258923.4063
889.5000	259207.2969
889.0000	259864.1719
888.5000	258372.2969
888.0000	260593.4063
887.5000	258901.1406
887.0000	259552.4375
886.5000	258617.2344
886.0000	262129.8125
885.5000	262463.8125
885.0000	258416.8281
884.5000	261311.5156
884.0000	260610.1094
883.5000	261639.9531
883.0000	262881.3125
882.5000	262397.0313
882.0000	261049.8750
881.5000	263031.6250
881.0000	261734.5781
880.5000	265764.8750
880.0000	264562.4688
879.5000	264868.6250
879.0000	266176.8125
878.5000	265158.0938
878.0000	263977.9688
877.5000	265057.9063
877.0000	265781.5625
876.5000	266354.9375
876.0000	265425.2813
875.5000	265575.5938
875.0000	264011.3438
874.5000	265258.2813
874.0000	266137.8438
873.5000	266666.6563
873.0000	266004.2188
872.5000	268075.0313
872.0000	267228.9063
871.5000	265486.5313
871.0000	268136.2813
870.5000	268665.0938
870.0000	268559.3438
869.5000	267490.5313
869.0000	270362.9375
868.5000	269049.2188
868.0000	271726.7813
867.5000	269360.9375
867.0000	270184.8125
866.5000	270719.2188
866.0000	270446.4375
865.5000	271136.7188
865.0000	271225.7813
864.5000	270891.7813
864.0000	268492.5313
863.5000	269110.4375
863.0000	271815.8438
862.5000	270156.9688
862.0000	273402.3750
861.5000	269054.7813
861.0000	270435.3125
860.5000	272656.4375
860.0000	271493.0000
859.5000	273096.1875
859.0000	272238.9375
858.5000	274710.5313
858.0000	276230.2500
857.5000	274254.0625
857.0000	272962.5938
856.5000	273730.7813
856.0000	274938.7813
855.5000	273764.1875
855.0000	274588.0625
854.5000	276213.5313
854.0000	273908.9375
853.5000	275573.3750
853.0000	277065.2500
852.5000	276664.4375
852.0000	277577.3750
851.5000	276002.0000
851.0000	277254.5000
850.5000	276224.6563
850.0000	276720.0938
849.5000	277020.7188
849.0000	277710.9688
848.5000	277755.5000
848.0000	278657.3125
847.5000	278167.4375
847.0000	278250.9375
846.5000	280099.0938
846.0000	279303.0625
845.5000	279342.0313
845.0000	281618.7813
844.5000	278918.9375
844.0000	279447.7813
843.5000	279837.4375
843.0000	278896.6875
842.5000	281173.4688
842.0000	279475.6250
841.5000	280800.5000
841.0000	280906.2500
840.5000	282392.5625
840.0000	283767.5313
839.5000	281468.5000
839.0000	283711.8750
838.5000	283222.0000
838.0000	281156.7500
837.5000	283272.0938
837.0000	282058.5625
836.5000	284268.5313
836.0000	283567.1250
835.5000	284402.1250
835.0000	284691.5938
834.5000	283934.5313
834.0000	284446.6563
833.5000	286278.1250
833.0000	285604.5313
832.5000	285676.9063
832.0000	284897.5625
831.5000	284374.3125
831.0000	286589.8438
830.5000	285437.5313
830.0000	283739.6875
829.5000	287692.0625
829.0000	285894.0000
828.5000	286729.0000
828.0000	289144.9688
827.5000	289490.0938
827.0000	286890.4375
826.5000	288354.5000
826.0000	288827.6563
825.5000	289451.1250
825.0000	288326.6563
824.5000	287319.0938
824.0000	288415.7188
823.5000	289356.5000
823.0000	290870.6250
822.5000	290597.8750
822.0000	290152.5313
821.5000	290976.4063
821.0000	289796.2500
820.5000	290469.8438
820.0000	292084.1563
819.5000	290787.1250
819.0000	292440.4375
818.5000	292752.1563
818.0000	291444.0000
817.5000	293047.2188
817.0000	291833.6563
816.5000	294205.0625
816.0000	291833.6563
815.5000	292173.2500
815.0000	292791.1250
814.5000	294043.6563
814.0000	292791.1250
813.5000	295468.7188
813.0000	293987.9688
812.5000	293642.8438
812.0000	294989.9688
811.5000	297344.6875
811.0000	295340.6875
810.5000	297361.3750
810.0000	292212.1875
809.5000	294611.4375
809.0000	293848.8125
808.5000	296687.8125
808.0000	296760.1875
807.5000	296815.8438
807.0000	297678.6875
806.5000	299571.3750
806.0000	298151.8438
805.5000	298424.6250
805.0000	296364.9375
804.5000	299009.1250
804.0000	296754.6250
803.5000	300423.0625
803.0000	298574.9375
802.5000	299231.8125
802.0000	300495.4375
801.5000	300267.1875
801.0000	301196.8438
800.5000	299131.5938
800.0000	299354.2500
799.5000	301252.5000
799.0000	301530.8438
798.5000	303423.5000
798.0000	302471.6250
797.5000	301324.8750
797.0000	301425.0625
796.5000	301363.8438
796.0000	300835.0000
795.5000	303868.8438
795.0000	301536.4063
794.5000	305154.7500
794.0000	303000.4375
793.5000	305433.0938
793.0000	306874.8750
792.5000	305087.9688
792.0000	303262.0938
791.5000	303712.9688
791.0000	305744.8125
790.5000	305694.7188
790.0000	304147.1875
789.5000	306262.5313
789.0000	306078.8125
788.5000	307977.0625
788.0000	305060.1250
787.5000	307531.7188
787.0000	305778.2188
786.5000	308505.9063
786.0000	306863.7188
785.5000	307225.5625
785.0000	307231.1250
784.5000	309251.8438
784.0000	309635.9375
783.5000	308528.1563
783.0000	307871.3125
782.5000	311851.4688
782.0000	311784.6875
781.5000	310816.0625
781.0000	309446.6563
780.5000	311584.2813
780.0000	308366.7188
779.5000	312191.0625
779.0000	309708.3125
778.5000	315536.6250
778.0000	309235.1250
777.5000	312107.5625
777.0000	312458.2500
776.5000	313449.1250
776.0000	312291.2500
775.5000	311907.1563
775.0000	309786.2500
774.5000	315803.8438
774.0000	313198.6250
773.5000	314478.9688
773.0000	314261.8438
772.5000	315592.2813
772.0000	316354.9375
771.5000	314311.9688
771.0000	316688.9375
770.5000	315152.5313
770.0000	315480.9688
769.5000	314256.2813
769.0000	317507.2500
768.5000	315981.9688
768.0000	315787.1250
767.5000	318269.8750
767.0000	315592.2813
766.5000	320657.9688
766.0000	319878.6563
765.5000	320323.9688
765.0000	318459.1250
764.5000	318871.0625
764.0000	318308.8438
763.5000	319255.1875
763.0000	320312.8438
762.5000	318353.3750
762.0000	321370.5313
761.5000	319850.8125
761.0000	319121.5625
760.5000	320140.2813
760.0000	321320.4063
759.5000	322973.7188
759.0000	319711.6563
758.5000	321426.1875
758.0000	321943.8750
757.5000	323207.5313
757.0000	323986.8750
756.5000	324955.4688
756.0000	322450.4688
755.5000	325506.5625
755.0000	326207.9688
754.5000	323669.5625
754.0000	326169.0000
753.5000	324510.1250
753.0000	327026.2813
752.5000	324554.6563
752.0000	326926.0625
751.5000	326480.7500
751.0000	330082.3750
750.5000	325818.3125
750.0000	329336.4375
749.5000	328996.8750
749.0000	329909.8125
748.5000	330182.5938
748.0000	329887.5625
747.5000	328846.5938
747.0000	333194.1563
746.5000	331802.5000
746.0000	331963.9375
745.5000	330204.8438
745.0000	329776.2188
744.5000	332431.5313
744.0000	331858.1563
743.5000	332682.0313
743.0000	334285.2500
742.5000	333461.3750
742.0000	335632.3750
741.5000	336255.8438
741.0000	334034.7500
740.5000	337591.8438
740.0000	335548.8750
739.5000	337814.5313
739.0000	336606.5313
738.5000	336795.8125
738.0000	337124.2500
737.5000	339395.4688
737.0000	340603.4375
736.5000	336934.9688
736.0000	340826.0938
735.5000	338198.6250
735.0000	339746.1563
734.5000	339150.5313
734.0000	340130.2500
733.5000	339662.6563
733.0000	340280.5625
732.5000	340436.4375
732.0000	344856.3750
731.5000	344177.2500
731.0000	343286.5625
730.5000	345557.7813
730.0000	344822.9688
729.5000	346509.6875
729.0000	347389.2188
728.5000	350005.5625
728.0000	351130.0313
727.5000	352516.1563
727.0000	354097.0938
726.5000	352950.3438
726.0000	356513.0313
725.5000	356351.5938
725.0000	361779.1250
724.5000	363799.8125
724.0000	366477.4063
723.5000	366800.2813
723.0000	366588.7188
722.5000	369372.0625
722.0000	369900.9063
721.5000	377421.5000
721.0000	376747.9375
720.5000	379631.5000
720.0000	380583.3750
719.5000	381329.3125
719.0000	382604.0938
718.5000	382548.4375
718.0000	379837.4375
717.5000	377326.8750
717.0000	378378.9688
716.5000	371637.7188
716.0000	367785.5625
715.5000	365865.0625
715.0000	361851.4688
714.5000	359591.4063
714.0000	358494.7813
713.5000	357509.4688
713.0000	353757.5000
712.5000	350829.4375
712.0000	348068.3438
711.5000	345552.2188
711.0000	345902.9063
710.5000	344171.6875
710.0000	341432.8750
709.5000	342518.3750
709.0000	342223.3438
708.5000	340937.4375
708.0000	338744.1563
707.5000	337307.9375
707.0000	339078.1563
706.5000	337079.7188
706.0000	338343.3438
705.5000	338788.6875
705.0000	336740.1563
704.5000	338632.8125
704.0000	335649.0625
703.5000	335348.4688
703.0000	335704.7500
702.5000	334352.0313
702.0000	337842.3438
701.5000	337797.8125
701.0000	337675.3438
700.5000	337513.9063
700.0000	333628.3750
699.5000	336205.7500
699.0000	334958.8125
698.5000	336094.4063
698.0000	337641.9375
697.5000	339016.9375
697.0000	336150.0625
696.5000	335025.5938
696.0000	337157.6563
695.5000	338554.8750
695.0000	337196.6250
694.5000	338282.1250
694.0000	338003.7813
693.5000	337491.6563
693.0000	337035.1875
692.5000	339167.2188
692.0000	337525.0625
691.5000	336350.4688
691.0000	341354.9375
690.5000	337714.3125
690.0000	340503.2188
689.5000	340659.0938
689.0000	340313.9688
688.5000	339039.1875
688.0000	340776.0000
687.5000	342345.8125
687.0000	341661.0938
686.5000	341004.2188
686.0000	340514.3750
685.5000	342818.9688
685.0000	341444.0000
684.5000	340714.7500
684.0000	342329.0938
683.5000	343976.8438
683.0000	342028.5000
682.5000	342468.2813
682.0000	344700.5000
681.5000	343286.5625
681.0000	346548.6563
680.5000	343514.8125
680.0000	344283.0000
679.5000	344294.1563
679.0000	344795.1563
678.5000	344600.3125
678.0000	345691.3750
677.5000	346966.1563
677.0000	346888.2188
676.5000	344711.6563
676.0000	346938.3125
675.5000	345836.1250
675.0000	347060.7813
674.5000	347890.2188
674.0000	347088.6250
673.5000	346175.6875
673.0000	346047.6563
672.5000	348608.3125
672.0000	348814.2813
671.5000	348263.1875
671.0000	349320.8750
670.5000	349537.9688
670.0000	349510.1250
669.5000	349326.4375
669.0000	351831.4375
668.5000	348357.8125
668.0000	347957.0313
667.5000	350283.9063
667.0000	349710.5313
666.5000	349888.6563
666.0000	352287.9063
665.5000	348018.2500
665.0000	353050.5313
664.5000	351586.5000
664.0000	352360.2813
663.5000	352415.9375
663.0000	353161.8750
662.5000	352221.0938
662.0000	351402.8125
661.5000	352037.4063
661.0000	356668.9063
660.5000	353445.7813
660.0000	355739.2500
659.5000	354419.9375
659.0000	357971.5000
658.5000	356468.5000
658.0000	357214.4375
657.5000	357787.8125
657.0000	358027.1563
656.5000	355399.6875
656.0000	356908.2500
655.5000	356568.6875
655.0000	356941.6563
654.5000	356585.4063
654.0000	356886.0000
653.5000	357470.5000
653.0000	359101.5313
652.5000	357225.5625
652.0000	358255.4063
651.5000	359624.8125
651.0000	358695.1563
650.5000	360331.7813
650.0000	361690.0313
649.5000	360543.3125
649.0000	358439.0938
648.5000	359680.4688
648.0000	358411.2813
647.5000	362970.3750
647.0000	359808.5000
646.5000	362268.9688
646.0000	359719.4375
645.5000	363582.7188
645.0000	361222.4375
644.5000	362101.9688
644.0000	360827.2188
643.5000	363961.2500
643.0000	361094.4063
642.5000	363588.2813
642.0000	360643.5000
641.5000	364389.9063
641.0000	364067.0313
640.5000	363643.9688
640.0000	363844.3438
639.5000	364078.1563
639.0000	364607.0000
638.5000	365965.2500
638.0000	363833.2188
637.5000	364757.2813
637.0000	364083.7188
636.5000	367045.1875
636.0000	367451.5625
635.5000	367490.5313
635.0000	369060.3438
634.5000	371103.3125
634.0000	370502.1250
633.5000	370285.0000
633.0000	370212.6563
632.5000	370234.9063
632.0000	371587.6250
631.5000	368748.5938
631.0000	374387.6563
630.5000	371287.0313
630.0000	374315.3125
629.5000	374922.0625
629.0000	374844.1250
628.5000	376898.2500
628.0000	375400.8125
627.5000	376887.0938
627.0000	376040.9688
626.5000	375489.8750
626.0000	375328.4375
625.5000	373586.0625
625.0000	376358.2813
624.5000	374938.7813
624.0000	374755.0625
623.5000	378668.4375
623.0000	375183.6875
622.5000	379113.7813
622.0000	377694.2813
621.5000	379703.8438
621.0000	379458.9063
620.5000	379408.8125
620.0000	381663.3125
619.5000	380110.2188
619.0000	379653.7500
618.5000	381819.1875
618.0000	384274.0938
617.5000	381780.2188
617.0000	383578.2813
616.5000	383522.5938
616.0000	383912.2813
615.5000	385521.0313
615.0000	388293.2500
614.5000	387853.5000
614.0000	389250.7188
613.5000	391026.5000
613.0000	394433.3125
612.5000	396704.5313
612.0000	396955.0313
611.5000	400690.2813
611.0000	402822.3125
610.5000	407331.3438
610.0000	410109.0938
609.5000	415597.8750
609.0000	420145.8438
608.5000	425423.0625
608.0000	432899.1250
607.5000	441043.1875
607.0000	451152.3125
606.5000	469205.0625
606.0000	497895.7813
605.5000	529230.6875
605.0000	571008.6875
604.5000	605700.3125
604.0000	621086.6250
603.5000	600372.9375
603.0000	558812.0625
602.5000	508556.0000
602.0000	468809.8438
601.5000	438543.7500
601.0000	421181.2500
600.5000	406128.9375
600.0000	394939.8750
599.5000	385827.2188
599.0000	382192.1563
598.5000	378918.9375
598.0000	377299.0313
597.5000	373201.9688
597.0000	373068.3438
596.5000	366071.0313
596.0000	367902.4688
595.5000	365686.9375
595.0000	361806.9375
594.5000	362241.1563
594.0000	362341.3438
593.5000	360827.2188
593.0000	361400.5938
592.5000	361166.7813
592.0000	361534.1875
591.5000	362185.4688
591.0000	357676.4688
590.5000	359029.1563
590.0000	362575.1563
589.5000	364640.4063
589.0000	363187.5000
588.5000	362408.1563
588.0000	363838.7813
587.5000	362697.6250
587.0000	363493.6563
586.5000	359719.4375
586.0000	364545.7500
585.5000	364952.1250
585.0000	368409.0313
584.5000	368620.5625
584.0000	369227.3438
583.5000	372283.4688
583.0000	376714.5313
582.5000	383177.4688
582.0000	382782.2188
581.5000	391160.0938
581.0000	393403.4688
580.5000	397728.7813
580.0000	402059.6875
579.5000	404731.6875
579.0000	413682.9063
578.5000	419811.8438
578.0000	430627.9375
577.5000	443615.0000
577.0000	458461.3750
576.5000	478178.5938
576.0000	505037.8438
575.5000	544555.7500
575.0000	600250.5000
574.5000	674348.6875
574.0000	750283.8750
573.5000	801002.0000
573.0000	806546.4375
572.5000	755199.3125
572.0000	664467.8125
571.5000	569706.0625
571.0000	492284.5625
570.5000	440475.4063
570.0000	402488.3125
569.5000	374131.5938
569.0000	353813.1875
568.5000	336511.9063
568.0000	327198.8438
567.5000	316371.6250
567.0000	309340.9063
566.5000	300445.3438
566.0000	295006.6875
565.5000	291438.4375
565.0000	286161.2188
564.5000	286862.6250
564.0000	280694.7188
563.5000	278774.2188
563.0000	276163.4375
562.5000	275011.1250
562.0000	275155.8750
561.5000	271660.0000
561.0000	271704.5313
560.5000	272144.2813
560.0000	271097.7500
559.5000	270168.1250
559.0000	269232.9063
558.5000	267924.7500
558.0000	269160.5313
557.5000	266794.6875
557.0000	267685.3750
556.5000	268921.1875
556.0000	266354.9375
555.5000	266611.0000
555.0000	266126.6875
554.5000	266471.8438
554.0000	265180.3750
553.5000	266466.2813
553.0000	265776.0000
552.5000	266633.2813
552.0000	264651.5313
551.5000	266527.5000
551.0000	265809.4063
550.5000	264874.1875
550.0000	269182.8125
549.5000	265909.5938
549.0000	266649.9688
548.5000	264328.6563
548.0000	267223.3438
547.5000	267245.5938
547.0000	266889.3438
546.5000	265909.5938
546.0000	264863.0625
545.5000	265364.0625
545.0000	265614.5625
544.5000	266638.8438
544.0000	265931.8750
543.5000	265826.0938
543.0000	266622.1250
542.5000	267830.0938
542.0000	265698.0625
541.5000	267557.3438
541.0000	266622.1250
540.5000	265686.9375
540.0000	268225.3438
539.5000	267451.5625
539.0000	266399.4688
538.5000	270084.6250
538.0000	269372.0625
537.5000	266722.3438
537.0000	268019.3750
536.5000	268904.4688
536.0000	269399.9063
535.5000	268264.3125
535.0000	269427.7500
534.5000	269951.0000
534.0000	270574.4688
533.5000	269711.6563
533.0000	268926.7500
532.5000	269995.5313
532.0000	270463.1563
531.5000	270340.6875
531.0000	272461.5938
530.5000	269978.8438
530.0000	270090.1875
529.5000	271415.0625
529.0000	270212.6563
528.5000	270769.3125
528.0000	269477.8438
527.5000	270886.2188
527.0000	272890.2188
526.5000	270351.8125
526.0000	274203.9688
525.5000	271982.8438
525.0000	272366.9688
524.5000	272083.0625
524.0000	272973.7188
523.5000	271459.5938
523.0000	273296.5938
522.5000	273090.6250
522.0000	277132.0313
521.5000	275935.2188
521.0000	274382.0938
520.5000	275946.3438
520.0000	278445.7813
519.5000	275489.8750
519.0000	276391.6875
518.5000	274176.1250
518.0000	277193.2813
517.5000	274977.7188
517.0000	276447.3438
516.5000	276213.5313
516.0000	275979.7500
515.5000	277694.2813
515.0000	277171.0000
514.5000	277143.1875
514.0000	278356.7188
513.5000	275317.3125
513.0000	276792.4688
512.5000	277755.5000
512.0000	279314.1875
511.5000	278445.7813
511.0000	278306.6250
510.5000	280143.6250
510.0000	276358.2813
509.5000	280010.0313
509.0000	279815.1875
508.5000	281012.0313
508.0000	279180.5938
507.5000	279731.6875
507.0000	279731.6875
506.5000	281245.8125
506.0000	282153.1875
505.5000	282153.1875
505.0000	280761.5313
504.5000	282381.4375
504.0000	282091.9688
503.5000	282014.0313
503.0000	284268.5313
502.5000	284429.9688
502.0000	283823.1875
501.5000	283812.0625
501.0000	282949.2188
500.5000	283194.1563
500.0000	284580.2813
499.5000	286389.4375
499.0000	284157.2188
498.5000	285732.5625
498.0000	285365.1875
497.5000	282047.4375
497.0000	283333.3438
496.5000	282581.8438
496.0000	283483.6250
495.5000	285626.8125
495.0000	284340.9063
494.5000	288911.1563
494.0000	287185.4688
493.5000	287864.6250
493.0000	287552.8750
492.5000	287608.5625
492.0000	288204.1875
491.5000	286506.3438
491.0000	286812.5000
490.5000	290497.6563
490.0000	287168.7813
489.5000	288053.8750
489.0000	290809.4063
488.5000	289590.2813
488.0000	289679.3438
487.5000	289584.7188
487.0000	290119.1250
486.5000	288799.8125
486.0000	290820.5313
485.5000	293041.6250
485.0000	292340.2500
484.5000	291844.8125
484.0000	289412.1563
483.5000	293169.6875
483.0000	291533.0625
482.5000	292217.7813
482.0000	291032.0625
481.5000	292646.4063
481.0000	291544.1875
480.5000	293520.3750
480.0000	292234.4688
479.5000	293275.4375
479.0000	290275.0000
478.5000	291694.5000
478.0000	292763.3125
477.5000	293793.1563
477.0000	291505.2188
476.5000	295452.0000
476.0000	294700.5000
475.5000	294667.1250
475.0000	293275.4375
474.5000	294316.4063
474.0000	295836.1250
473.5000	296615.4688
473.0000	296186.8125
472.5000	296971.7188
472.0000	296415.0625
471.5000	297361.3750
471.0000	298207.5313
470.5000	298252.0625
470.0000	297066.3438
469.5000	298625.0313
469.0000	297617.4688
468.5000	299732.8125
468.0000	300339.5625
467.5000	299560.2188
467.0000	299382.0938
466.5000	300590.0625
466.0000	300072.3750
465.5000	300734.8125
465.0000	300356.2813
464.5000	300523.2813
464.0000	301319.3125
463.5000	301397.2500
463.0000	304197.2813
462.5000	302783.3438
462.0000	303562.6875
461.5000	302861.2813
461.0000	305895.1250
460.5000	306145.6250
460.0000	304380.9688
459.5000	301965.0313
459.0000	304670.4375
458.5000	305689.1563
458.0000	305828.3125
457.5000	306401.6875
457.0000	306936.0938
456.5000	306151.1875
456.0000	309151.6250
455.5000	308127.3750
455.0000	306886.0000
454.5000	306401.6875
454.0000	309224.0000
453.5000	309647.0625
453.0000	307726.5625
452.5000	308539.3125
452.0000	309958.8125
451.5000	308244.2813
451.0000	307782.2188
450.5000	307843.4688
450.0000	308917.8438
449.5000	310209.3125
449.0000	309613.6563
448.5000	307810.0625
448.0000	310905.1563
447.5000	309847.4688
447.0000	309385.4375
446.5000	309686.0313
446.0000	308761.9688
445.5000	307297.9375
445.0000	309641.5000
444.5000	308439.0938
444.0000	309396.5625
443.5000	309658.2188
443.0000	310643.5000
442.5000	311250.2813
442.0000	309992.2188
441.5000	310142.5000
441.0000	309012.4688
440.5000	309925.4063
440.0000	308478.0625
439.5000	308600.5313
439.0000	312408.1563
438.5000	311395.0000
438.0000	310548.8750
437.5000	308372.3125
437.0000	310688.0313
436.5000	310214.8750
436.0000	309802.9375
435.5000	308672.9063
435.0000	310142.5000
434.5000	308149.6250
434.0000	308383.4375
433.5000	309491.2188
433.0000	309596.9688
432.5000	309680.4688
432.0000	310955.2500
431.5000	308851.0313
431.0000	312942.5625
430.5000	311094.4063
430.0000	311322.6563
429.5000	314000.2188
429.0000	308389.0000
428.5000	312302.3750
428.0000	310253.8438
427.5000	309897.5625
427.0000	313131.8125
426.5000	311962.8125
426.0000	310743.7188
425.5000	312641.9375
425.0000	313170.7813
424.5000	312346.9063
424.0000	314857.5000
423.5000	312836.7813
423.0000	313176.3438
422.5000	313254.2813
422.0000	313805.3750
421.5000	313271.0000
421.0000	312619.6875
420.5000	313092.8438
420.0000	309535.7500
419.5000	312313.5313
419.0000	312519.4688
418.5000	314423.2813
418.0000	310042.3125
417.5000	313059.4375
417.0000	314245.1563
416.5000	311133.3750
416.0000	313126.2500
415.5000	310888.4375
415.0000	312719.8750
414.5000	312502.7813
414.0000	312886.8750
413.5000	310921.8438
413.0000	315180.3750
412.5000	316026.5000
412.0000	315447.5625
411.5000	316922.7188
411.0000	316405.0313
410.5000	318002.6875
410.0000	317869.0625
409.5000	321092.1875
409.0000	321509.6875
408.5000	319995.5313
408.0000	322316.8438
407.5000	324103.7500
407.0000	325044.5313
406.5000	325617.9063
406.0000	326658.8750
405.5000	328006.0000
405.0000	328078.3750
404.5000	329503.4375
404.0000	329748.3750
403.5000	334752.8438
403.0000	334725.0000
402.5000	336740.1563
402.0000	338482.5313
401.5000	340987.5313
401.0000	343665.0938
400.5000	344166.1250
400.0000	346682.2500
399.5000	347623.0313
399.0000	347790.0313
398.5000	349064.7813
398.0000	350139.1563
397.5000	348780.9063
397.0000	348669.5625
396.5000	348146.2813
396.0000	350384.0938
395.5000	350022.2813
395.0000	353551.5625
394.5000	356368.2813
394.0000	359157.2188
393.5000	360148.0625
393.0000	361979.5000
392.5000	362146.5000
392.0000	357554.0000
391.5000	357041.8750
391.0000	359452.2500
390.5000	352677.5625
390.0000	351113.3438
389.5000	353802.0625
389.0000	353006.0000
388.5000	355839.4688
388.0000	354347.5938
387.5000	355572.2500
387.0000	355722.5625
386.5000	357637.5000
386.0000	358450.2188
385.5000	360342.9063
385.0000	360303.9375
384.5000	361239.1563
384.0000	365870.6250
383.5000	368898.9063
383.0000	376848.1563
382.5000	378657.3125
382.0000	385298.3750
381.5000	384357.5938
381.0000	384062.5625
380.5000	386573.1563
380.0000	387814.5313
379.5000	395056.7813
379.0000	410086.8438
378.5000	426497.4375
378.0000	442718.7813
377.5000	446236.9063
377.0000	454481.1875
376.5000	494283.0000
376.0000	586472.9375
375.5000	799059.2500
375.0000	1158283.2500
374.5000	1620719.2500
374.0000	1679687.1250
373.5000	1134045.8750
373.0000	625233.8125
372.5000	466126.6875
372.0000	429865.2813
371.5000	396865.9688
371.0000	380939.6563
370.5000	420953.0313
370.0000	542429.3125
369.5000	841037.6250
369.0000	1357804.5000
368.5000	1985554.5000
368.0000	2059162.7500
367.5000	1284947.6250
367.0000	538627.2500
366.5000	267117.5625
366.0000	187959.2500
365.5000	156874.8594
365.0000	133244.2656
364.5000	116260.2969
364.0000	103668.4453
363.5000	95335.1172
363.0000	87886.8828
362.5000	81379.4219
362.0000	76681.1406
361.5000	71314.8516
361.0000	68286.5703
360.5000	64111.5547
360.0000	63315.5195
359.5000	60136.9414
359.0000	59090.4023
358.5000	57442.6641
358.0000	56457.3594
357.5000	54804.0508
357.0000	54314.1836
356.5000	52505.0117
356.0000	52081.9414
355.5000	52833.4453
355.0000	51837.0078
354.5000	52410.3750
354.0000	51592.0742
353.5000	50818.3047
353.0000	51948.3398
352.5000	51798.0391
352.0000	50239.3672
351.5000	51491.8711
351.0000	51180.1367
350.5000	50918.5039
350.0000	50261.6328
349.5000	49593.6328
349.0000	50462.0352
348.5000	50662.4375
348.0000	49766.1992
347.5000	50334.0000
347.0000	49287.4648
346.5000	49866.3984
346.0000	49855.2656
345.5000	50506.5703
345.0000	49827.4336
344.5000	50356.2695
344.0000	50300.6016
343.5000	49910.9336
343.0000	50690.2695
342.5000	50083.5000
342.0000	50077.9336
341.5000	50835.0039
341.0000	50200.4023
340.5000	50762.6367
340.0000	50306.1680
339.5000	49755.0664
339.0000	49693.8320
338.5000	49710.5313
338.0000	49944.3320
337.5000	49365.3984
337.0000	49220.6641
336.5000	49081.4961
336.0000	49771.7656
335.5000	49571.3633
335.0000	50311.7344
334.5000	50484.3008
334.0000	49983.3008
333.5000	50356.2695
333.0000	49382.0977
332.5000	50629.0352
332.0000	49677.1328
331.5000	49749.5000
331.0000	50484.3008
330.5000	50556.6680
330.0000	49788.4648
329.5000	50278.3359
329.0000	50077.9336
328.5000	50807.1680
328.0000	49309.7305
327.5000	50378.5352
327.0000	51052.1055
326.5000	49576.9336
326.0000	50244.9336
325.5000	50823.8711
325.0000	50244.9336
324.5000	50027.8320
324.0000	50617.9023
323.5000	51224.6719
323.0000	50439.7695
322.5000	51486.3047
322.0000	51013.1367
321.5000	50484.3008
321.0000	51530.8398
320.5000	51553.1055
320.0000	52605.2109
319.5000	52065.2422
319.0000	52326.8750
318.5000	52265.6406
318.0000	51124.4727
317.5000	50740.3711
317.0000	51146.7383
316.5000	51764.6406
316.0000	51553.1055
315.5000	51374.9727
315.0000	51475.1719
314.5000	51174.5703
314.0000	50946.3359
313.5000	51464.0391
313.0000	50578.9375
312.5000	50695.8359
312.0000	50790.4688
311.5000	50723.6680
311.0000	51402.8047
310.5000	50718.1016
310.0000	50996.4375
309.5000	50562.2344
309.0000	52115.3398
308.5000	51553.1055
308.0000	50384.1016
307.5000	50668.0039
307.0000	50857.2695
306.5000	51809.1758
306.0000	51508.5742
305.5000	51998.4414
305.0000	50400.8008
304.5000	51336.0039
304.0000	51998.4414
303.5000	52093.0742
303.0000	52081.9414
302.5000	51814.7422
302.0000	51953.9063
301.5000	51636.6055
301.0000	50623.4688
300.5000	51759.0742
300.0000	51942.7734
299.5000	52321.3086
299.0000	51013.1367
298.5000	52054.1094
298.0000	51686.7070
297.5000	51341.5703
297.0000	51625.4727
296.5000	52187.7070
296.0000	51965.0430
295.5000	52822.3125
295.0000	51998.4414
294.5000	52365.8438
294.0000	52566.2422
293.5000	51992.8750
293.0000	52232.2422
292.5000	52488.3086
292.0000	52338.0078
291.5000	53223.1133
291.0000	52822.3125
290.5000	53484.7461
290.0000	52655.3125
289.5000	52627.4766
289.0000	53039.4141
288.5000	52237.8086
288.0000	52154.3086
287.5000	52777.7773
287.0000	52877.9766
286.5000	52037.4063
286.0000	52132.0430
285.5000	52126.4766
285.0000	52076.3750
284.5000	53473.6133
284.0000	54236.2500
283.5000	53930.0820
283.0000	53868.8477
282.5000	53401.2461
282.0000	53590.5156
281.5000	53362.2813
281.0000	53868.8477
280.5000	54325.3164
280.0000	54169.4492
279.5000	54464.4844
279.0000	53139.6133
278.5000	53768.6484
278.0000	52688.7109
277.5000	53250.9453
277.0000	53367.8477
276.5000	54124.9180
276.0000	53028.2773
275.5000	53312.1797
275.0000	53935.6484
274.5000	53495.8789
274.0000	54781.7852
273.5000	53857.7148
273.0000	54408.8164
272.5000	54932.0859
272.0000	53802.0469
271.5000	54809.6211
271.0000	54319.7500
270.5000	54069.2500
270.0000	54859.7188
269.5000	54380.9844
269.0000	54470.0508
268.5000	55549.9883
268.0000	55210.4219
267.5000	53946.7813
267.0000	54915.3867
266.5000	54303.0508
266.0000	54648.1836
265.5000	54637.0508
265.0000	54831.8867
264.5000	54676.0195
264.0000	54876.4180
263.5000	54987.7539
263.0000	54458.9180
262.5000	53879.9805
262.0000	55427.5234
261.5000	54893.1211
261.0000	55093.5195
260.5000	54614.7852
260.0000	56468.4922
259.5000	54954.3516
259.0000	55293.9219
258.5000	55277.2227
258.0000	56034.2891
257.5000	55215.9883
257.0000	56067.6914
256.5000	56056.5586
256.0000	55767.0898
255.5000	55939.6563
255.0000	55149.1875
254.5000	55822.7578
254.0000	55616.7891
253.5000	55878.4219
253.0000	56596.5273
252.5000	55494.3203
252.0000	55438.6563
251.5000	55394.1211
251.0000	56123.3594
250.5000	56468.4922
250.0000	55421.9531
249.5000	56629.9258
249.0000	55266.0859
248.5000	55817.1914
248.0000	56245.8242
247.5000	57175.4609
247.0000	56123.3594
246.5000	57181.0273
246.0000	56357.1602
245.5000	57175.4609
245.0000	57503.8984
244.5000	57041.8633
244.0000	57559.5625
243.5000	58884.4336
243.0000	58183.0313
242.5000	59301.9375
242.0000	59101.5352
241.5000	58344.4648
241.0000	58862.1680
240.5000	57676.4648
240.0000	56000.8906
239.5000	57047.4297
239.0000	56691.1602
238.5000	56607.6602
238.0000	56563.1250
237.5000	56373.8594
237.0000	56501.8945
236.5000	56574.2578
236.0000	57069.6953
235.5000	57069.6953
235.0000	56730.1250
234.5000	56295.9258
234.0000	56457.3594
233.5000	56546.4258
233.0000	57431.5313
232.5000	56813.6289
232.0000	57030.7266
231.5000	58016.0313
231.0000	56874.8594
230.5000	57119.7969
230.0000	57453.7969
229.5000	56529.7266
229.0000	57147.6289
228.5000	57336.8945
228.0000	57392.5625
227.5000	57392.5625
227.0000	57359.1641
226.5000	56223.5586
226.0000	57849.0313
225.5000	57119.7969
225.0000	57999.3320
224.5000	57665.3320
224.0000	59324.2031
223.5000	57631.9297
223.0000	58255.3984
222.5000	58272.1016
222.0000	57503.8984
221.5000	58027.1641
221.0000	57871.2969
220.5000	57219.9961
220.0000	57954.7969
219.5000	58433.5352
219.0000	58244.2656
218.5000	58016.0313
218.0000	58533.7344
217.5000	57442.6641
217.0000	56841.4609
216.5000	58027.1641
216.0000	58288.8008
215.5000	58283.2344
215.0000	58338.8984
214.5000	58227.5664
214.0000	58761.9688
213.5000	57876.8633
213.0000	58901.1367
212.5000	58355.6016
212.0000	58890.0039
211.5000	58895.5703
211.0000	58511.4688
210.5000	59051.4375
210.0000	58556.0000
209.5000	58856.6016
209.0000	58795.3672
208.5000	59886.4414
208.0000	58990.2031
207.5000	59413.2695
207.0000	58884.4336
206.5000	60125.8086
206.0000	59702.7383
205.5000	60610.1094
205.0000	59808.5078
204.5000	60287.2422
204.0000	59669.3398
203.5000	60237.1406
203.0000	59502.3398
202.5000	60003.3398
202.0000	60064.5742
201.5000	59218.4375
201.0000	60315.0742
200.5000	59552.4375
200.0000	60470.9414
199.5000	59602.5391
199.0000	59563.5703
198.5000	59546.8711
198.0000	60699.1758
197.5000	58311.0664
197.0000	61016.4766
196.5000	58956.8008
196.0000	60894.0117
195.5000	59981.0742
195.0000	60582.2773
194.5000	59747.2734
194.0000	61790.2461
193.5000	60615.6758
193.0000	60994.2109
192.5000	60905.1445
192.0000	62213.3164
191.5000	60053.4414
191.0000	61194.6133
190.5000	61144.5117
190.0000	61216.8789
189.5000	60543.3086
189.0000	61712.3125
188.5000	60727.0078
188.0000	61662.2148
187.5000	60944.1094
187.0000	60804.9414
186.5000	61244.7109
186.0000	61378.3125
185.5000	61177.9102
185.0000	62090.8477
184.5000	61996.2148
184.0000	62324.6484
183.5000	61166.7773
183.0000	62513.9180
182.5000	62981.5195
182.0000	62107.5469
181.5000	62497.2148
181.0000	62001.7813
180.5000	62202.1836
180.0000	63265.4180
179.5000	63098.4180
179.0000	62302.3828
178.5000	62675.3516
178.0000	62786.6836
177.5000	62658.6523
177.0000	61628.8125
176.5000	61845.9141
176.0000	62602.9844
175.5000	63265.4180
175.0000	62636.3828
174.5000	62224.4492
174.0000	62914.7188
173.5000	63437.9883
173.0000	63204.1875
172.5000	62575.1484
172.0000	62630.8164
171.5000	63454.6875
171.0000	63788.6875
170.5000	63694.0547
170.0000	63053.8867
169.5000	64946.5586
169.0000	64172.7891
168.5000	64512.3594
168.0000	63916.7227
167.5000	62981.5195
167.0000	62185.4805
166.5000	63655.0898
166.0000	63816.5234
165.5000	63744.1563
165.0000	63187.4844
164.5000	64050.3242
164.0000	63410.1523
163.5000	63159.6523
163.0000	64256.2891
162.5000	62992.6523
162.0000	63410.1523
161.5000	63699.6211
161.0000	63838.7891
160.5000	63983.5234
160.0000	64757.2930
159.5000	62786.6836
159.0000	63977.9570
158.5000	63399.0195
158.0000	63977.9570
157.5000	63243.1523
157.0000	64039.1914
156.5000	64395.4570
156.0000	64929.8594
155.5000	64929.8594
155.0000	64968.8281
154.5000	64295.2578
154.0000	64618.1250
153.5000	63699.6211
153.0000	65553.3281
152.5000	64818.5273
152.0000	64918.7266
151.5000	65386.3281
151.0000	65247.1602
150.5000	65180.3594
150.0000	65297.2617
149.5000	65224.8945
149.0000	65603.4297
148.5000	66143.3984
148.0000	65018.9258
147.5000	66054.3281
147.0000	65297.2617
146.5000	66171.2344
146.0000	65208.1953
145.5000	65943.0000
145.0000	65586.7266
144.5000	66455.1328
144.0000	66098.8672
143.5000	66354.9297
143.0000	65096.8594
142.5000	66577.6016
142.0000	66327.1016
141.5000	67145.3984
141.0000	67156.5391
140.5000	66215.7656
140.0000	67028.5000
139.5000	66471.8359
139.0000	66082.1641
138.5000	66638.8359
138.0000	65024.4922
137.5000	66883.7656
137.0000	65937.4297
136.5000	65803.8281
136.0000	67657.5391
135.5000	68403.4766
135.0000	67702.0703
134.5000	66688.9297
134.0000	67412.6016
133.5000	66739.0313
133.0000	66861.5000
132.5000	67980.4063
132.0000	67384.7734
131.5000	67902.4688
131.0000	67607.4375
130.5000	67240.0391
130.0000	67290.1328
129.5000	67189.9375
129.0000	67935.8750
128.5000	68297.7031
128.0000	67340.2344
127.5000	67184.3672
127.0000	68008.2422
126.5000	67100.8672
126.0000	66794.7031
125.5000	68609.4375
125.0000	67624.1406
124.5000	68102.8750
124.0000	67000.6719
123.5000	66872.6328
123.0000	68147.4063
122.5000	68225.3359
122.0000	69010.2422
121.5000	68692.9453
121.0000	68052.7734
120.5000	68514.8047
120.0000	67852.3750
119.5000	69349.8125
119.0000	69321.9766
118.5000	69177.2422
118.0000	68620.5781
117.5000	69026.9453
117.0000	68882.2109
116.5000	68570.4766
116.0000	69032.5078
115.5000	68809.8438
115.0000	68653.9766
114.5000	69054.7734
114.0000	69288.5781
113.5000	70156.9844
113.0000	69750.6094
112.5000	70040.0781
112.0000	69689.3750
111.5000	69377.6406
111.0000	70012.2500
110.5000	68731.9063
110.0000	69750.6094
109.5000	70329.5469
109.0000	70685.8125
108.5000	70619.0156
108.0000	70702.5156
107.5000	70396.3516
107.0000	70613.4453
106.5000	71325.9844
106.0000	72478.2891
105.5000	72734.3594
105.0000	73547.0938
104.5000	73318.8594
104.0000	73714.0938
103.5000	73636.1641
103.0000	73936.7656
102.5000	75400.8047
102.0000	75896.2344
101.5000	77905.8125
101.0000	78751.9453
100.5000	79386.5547
100.0000	81245.8281
99.5000	85059.0078
99.0000	86701.1797
98.5000	90503.2266
98.0000	91911.6016
97.5000	93854.3750
97.0000	94316.4141
96.5000	93982.4063
96.0000	91410.6016
95.5000	87174.3516
95.0000	83578.2656
94.5000	79653.7500
94.0000	76608.7734
93.5000	74582.5000
93.0000	73096.1953
92.5000	71966.1563
92.0000	71248.0547
91.5000	68659.5391
91.0000	68982.4063
90.5000	67150.9688
90.0000	66855.9375
89.5000	66705.6328
89.0000	66722.3359
88.5000	65737.0313
88.0000	66482.9688
87.5000	66794.7031
87.0000	66800.2656
86.5000	67011.8047
86.0000	66694.5000
85.5000	66945.0000
85.0000	66293.6953
84.5000	66878.2031
84.0000	66544.2031
83.5000	66460.6953
83.0000	67869.0703
82.5000	66772.4375
82.0000	67178.8047
81.5000	66471.8359
81.0000	67980.4063
80.5000	67201.0703
80.0000	66878.2031
79.5000	67919.1719
79.0000	68091.7422
78.5000	67852.3750
78.0000	68581.6094
77.5000	68392.3438
77.0000	69650.4141
76.5000	69895.3438
76.0000	68976.8438
75.5000	70557.7813
75.0000	70184.8125
74.5000	72250.0547
74.0000	72177.6875
73.5000	72456.0234
73.0000	73435.7578
72.5000	73062.7891
72.0000	74209.5313
71.5000	75445.3359
71.0000	74777.3359
70.5000	77460.4766
70.0000	77683.1406
69.5000	80360.7188
69.0000	82381.4297
68.5000	84725.0078
68.0000	86673.3438
67.5000	90224.8906
67.0000	90692.5000
66.5000	95001.1172
66.0000	97005.1250
65.5000	100796.0391
65.0000	101764.6406
64.5000	105405.2578
64.0000	105789.3594
63.5000	107960.3672
63.0000	108528.1641
62.5000	109814.0703
62.0000	110704.7422
61.5000	111545.3125
61.0000	112992.6484
60.5000	113265.4219
60.0000	114067.0234
59.5000	113449.1172
59.0000	114985.5234
58.5000	112586.2813
58.0000	113187.4844
57.5000	109457.8047
57.0000	105716.9922
56.5000	99716.1016
56.0000	96637.7188
55.5000	88872.1875
55.0000	84084.8359
54.5000	75990.8672
54.0000	71309.2891
53.5000	66727.8984
53.0000	60504.3438
52.5000	57147.6289
52.0000	52905.8125
51.5000	50389.6680
51.0000	46743.4883
50.5000	45218.2148
50.0000	43058.3398
49.5000	40414.1602
49.0000	39735.0273
48.5000	37391.4492
48.0000	37157.6484
47.5000	35932.9766
47.0000	34162.7695
46.5000	33884.4336
46.0000	34123.8047
45.5000	32386.9961
45.0000	32826.7656
44.5000	31908.2617
44.0000	32036.2949
43.5000	31607.6602
43.0000	31585.3926
42.5000	31474.0586
42.0000	30394.1211
41.5000	30549.9883
41.0000	30538.8555
40.5000	31362.7246
40.0000	30761.5234
39.5000	30555.5547
39.0000	31307.0586
38.5000	30021.1543
38.0000	30215.9883
37.5000	29631.4844
37.0000	29509.0176
36.5000	30722.5566
36.0000	29681.5859
35.5000	30243.8203
35.0000	30388.5547
34.5000	30850.5898
34.0000	30783.7891
33.5000	31318.1914
33.0000	31290.3594
32.5000	31485.1934
32.0000	31713.4277
31.5000	32659.7637
31.0000	32309.0625
30.5000	32520.5977
30.0000	32370.2969
29.5000	32236.6953
29.0000	32108.6621
28.5000	31089.9570
28.0000	31201.2910
27.5000	31101.0918
27.0000	30321.7539
26.5000	31440.6582
26.0000	31284.7910
25.5000	31885.9941
25.0000	31301.4922
24.5000	30744.8223
24.0000	30861.7227
23.5000	31190.1582
23.0000	32041.8613
22.5000	31880.4277
22.0000	32353.5957
21.5000	31468.4922
21.0000	32331.3301
20.5000	32197.7285
20.0000	32348.0293
19.5000	32425.9629
19.0000	32286.7949
18.5000	33093.9648
18.0000	33550.4336
17.5000	34129.3711
17.0000	33962.3711
16.5000	34719.4375
16.0000	36094.4102
15.5000	36400.5781
15.0000	38226.4531
14.5000	39083.7227
14.0000	40074.5938
13.5000	40202.6289
13.0000	41544.1992
12.5000	40469.8281
12.0000	42423.7383
11.5000	42752.1719
11.0000	44878.6445
10.5000	45440.8828
10.0000	48129.5938
9.5000	50751.5039
9.0000	54898.6875
8.5000	65826.0938
8.0000	86183.4766
7.5000	121598.7500
7.0000	162981.5156
6.5000	201018.7031
6.0000	219778.4531
5.5000	233828.7656
5.0000	233322.2031
4.5000	214963.2656
4.0000	162614.1094
3.5000	93692.9453
3.0000	44104.8750
2.5000	24927.6328
2.0000	20223.7813
1.5000	18230.9063
1.0000	16538.6328
0.5000	14300.8242
0.0000	10788.2432
-0.5000	7192.1621
-1.0000	4765.0859
-1.5000	3807.6152
-2.0000	2844.5781
-2.5000	2560.6770
-3.0000	2109.7751
-3.5000	1803.6072
-4.0000	1347.1387
-4.5000	1285.9052
-5.0000	1013.1374
-5.5000	818.3033
-6.0000	701.4028
-6.5000	673.5693
-7.0000	417.5017
-7.5000	462.0352
-8.0000	361.8348
-8.5000	350.7014
-9.0000	334.0013
-9.5000	189.2674
-10.0000	250.5010
-10.5000	228.2343
-11.0000	200.4008
-11.5000	239.3676
-12.0000	161.4340
-12.5000	200.4008
-13.0000	205.9675
-13.5000	144.7339
-14.0000	155.8673
-14.5000	94.6337
-15.0000	133.6005
-15.5000	89.0670
-16.0000	122.4672
-16.5000	122.4672
-17.0000	89.0670
-17.5000	122.4672
-18.0000	122.4672
-18.5000	122.4672
-19.0000	100.2004
-19.5000	100.2004
-20.0000	83.5003
